Folder: Pilot-N_I_S/Flexural Specimen

File: K-P-K 2 S.csv
0
0.05102083
0.1020104
0.1530208
0.2039792
0.2549792
0.3059688
0.3569792
0.4079896
0.459
0.5100104
0.5610104
0.6120209
0.6629896
0.7139896
0.7649583
0.8159792
0.8669896
0.9179896
0.9690104
1.02
1.071021
1.12201
1.173
1.223969
1.274979
1.325969
1.377
1.428
1.47899
1.530021
1.58101
1.63201
1.682979
1.733979
1.784969
1.83599
1.886979
1.938
1.98901
2.04
2.091021
2.141989
2.19299
2.243969
2.294979
2.345989
2.397
2.448
2.49901
2.550021
2.601
2.652
2.702958
2.753979
2.804979
2.855989
2.90701
2.958
3.009021
3.060021
3.11101
3.161969
3.212979
3.263958
3.31499
3.366
3.417
3.468021
3.51901
3.570021
3.62099
3.671979
3.722969
3.773979
3.824979
3.876
3.92701
3.978
4.029031
4.08
4.13099
4.181969
4.232979
4.283979
4.33499
4.386
4.43701
4.488021
4.539
4.59001
4.640969
4.691979
4.742979
4.79399
4.845
4.896
4.947011
4.998021
5.049021
5.099979
5.15099
5.201958
5.252989
5.303989
5.35499
5.40601
5.45701
5.508021
5.559
5.60999
5.660958
5.711979
5.762969
5.814
5.865
5.916
5.967031
6.018
6.069
6.119979
6.170969
6.221969
6.27299
6.323989
6.37501
6.426021
6.47701
6.528021
6.578979
6.629979
6.680969
6.731979
6.783
6.834
6.88501
6.936021
6.987021
7.03799
7.08899
7.139958
7.190979
7.24199
7.29299
7.34401
7.395
7.446021
7.49701
7.548
7.598969
7.649979
7.700969
7.752
7.803
7.854
7.905021
7.95601
8.00701
8.057979
8.108979
8.159968
8.210979
8.261979
8.313
8.36401
8.41501
8.466031
8.51699
8.567989
8.618969
8.669979
8.720989
8.77199
8.823
8.87401
8.925021
8.976
9.026999
9.077969
9.128979
9.179979
9.230989
9.282
9.333
9.384021
9.43502
9.486011
9.536968
9.587979
9.638968
9.689989
9.741
9.791989
9.84302
9.894011
9.94501
9.99599
10.04698
10.09796
10.14899
10.19998
10.251
10.30201
10.353
10.40403
10.455
10.50599
10.55697
10.60798
10.65898
10.71
10.761
10.81201
10.86302
10.914
10.96501
11.01597
11.06698
11.11798
11.16898
11.22
11.271
11.32201
11.37301
11.42402
11.47498
11.52599
11.57696
11.62799
11.67899
11.72999
11.78101
11.83201
11.88302
11.934
11.985
12.03596
12.08698
12.13797
12.189
12.24001
12.291
12.34203
12.393
12.444
12.49498
12.54598
12.59698
12.64799
12.69899
12.75001
12.80102
12.852
12.90302
12.95398
13.00498
13.05597
13.10698
13.158
13.209
13.26
13.31102
13.36202
13.41299
13.46399
13.51496
13.56599
13.61699
13.66799
13.71901
13.77
13.82102
13.87201
13.923
13.97397
14.02498
14.07597
14.127
14.178
14.229
14.28002
14.33101
14.38201
14.43298
14.48398
14.53497
14.58599
14.63699
14.688
14.73901
14.79001
14.84102
14.89199
14.94299
14.99397
15.04498
15.09599
15.147
15.198
15.22531